#1
#C1: time (Europe/Berlin)[s] from 2023-05-21T00:00:00+0200 to 2023-05-31T00:00:00+0200
#C2: power modules P1.1.2 [W]
double power_2023(961,2)
0	0.0
900	0.0
1800	0.0
2700	0.0
3600	0.0
4500	0.0
5400	0.0
6300	0.0
7200	0.0
8100	0.0
9000	0.0
9900	0.0
10800	0.0
11700	0.0
12600	0.0
13500	0.0
14400	0.0
15300	0.0
16200	0.0
17100	0.0
18000	0.0
18900	0.0
19800	5.6049
20700	8.0727
21600	13.465
22500	24.0164
23400	32.5641
24300	42.8855
25200	51.6666
26100	60.9953
27000	73.648
27900	89.5314
28800	92.9328
29700	91.5984
30600	94.3531
31500	83.85
32400	81.9309
33300	78.0199
34200	71.543
35100	75.2232
36000	78.6958
36900	92.287
37800	132.8516
38700	158.1612
39600	203.0281
40500	209.0266
41400	244.5705
42300	243.0105
43200	281.3279
44100	384.399
45000	430.3758
45900	316.2302
46800	304.3625
47700	396.2281
48600	449.044
49500	393.2043
50400	348.4998
51300	282.6859
52200	340.2805
53100	468.5964
54000	220.6586
54900	235.1141
55800	328.4598
56700	183.8111
57600	181.1719
58500	209.8086
59400	296.2339
60300	277.4469
61200	147.7755
62100	146.4031
63000	118.982
63900	129.0598
64800	211.513
65700	121.6669
66600	95.5303
67500	65.2664
68400	50.1385
69300	36.1115
70200	31.9802
71100	26.6484
72000	14.6109
72900	6.3723
73800	4.2792
74700	0.0
75600	0.0
76500	0.0
77400	0.0
78300	0.0
79200	0.0
80100	0.0
81000	0.0
81900	0.0
82800	0.0
83700	0.0
84600	0.0
85500	0.0
86400	0.0
87300	0.0
88200	0.0
89100	0.0
90000	0.0
90900	0.0
91800	0.0
92700	0.0
93600	0.0
94500	0.0
95400	0.0
96300	0.0
97200	0.0
98100	0.0
99000	0.0
99900	0.0
100800	0.0
101700	0.0
102600	0.0
103500	0.0
104400	0.0
105300	0.0
106200	6.493
107100	12.0039
108000	21.0811
108900	30.1474
109800	40.9313
110700	45.5238
111600	40.9281
112500	33.0823
113400	35.0578
114300	51.1573
115200	70.9848
116100	76.9145
117000	83.6855
117900	87.8281
118800	94.5589
119700	87.1552
120600	79.5065
121500	85.4651
122400	103.8565
123300	135.4573
124200	128.4292
125100	181.4707
126000	197.1553
126900	263.3089
127800	207.6003
128700	267.4646
129600	300.1859
130500	274.0289
131400	255.4159
132300	338.8951
133200	370.5938
134100	274.8026
135000	330.9011
135900	311.2703
136800	350.5297
137700	419.0388
138600	499.5635
139500	446.5031
140400	457.9258
141300	428.0594
142200	434.8771
143100	407.6331
144000	299.6307
144900	374.5516
145800	352.4168
146700	345.4438
147600	292.0055
148500	271.6645
149400	240.6602
150300	126.7904
151200	215.7656
152100	145.4982
153000	119.3086
153900	118.0312
154800	116.7912
155700	89.5977
156600	54.85
157500	29.5229
158400	21.4427
159300	10.8359
160200	3.1492
161100	3.0375
162000	0.0
162900	0.0
163800	0.0
164700	0.0
165600	0.0
166500	0.0
167400	0.0
168300	0.0
169200	0.0
170100	0.0
171000	0.0
171900	0.0
172800	0.0
173700	0.0
174600	0.0
175500	0.0
176400	0.0
177300	0.0
178200	0.0
179100	0.0
180000	0.0
180900	0.0
181800	0.0
182700	0.0
183600	0.0
184500	0.0
185400	0.0
186300	0.0
187200	0.0
188100	0.0
189000	0.0
189900	0.0
190800	0.0
191700	0.0
192600	0.0
193500	0.0
194400	0.0
195300	9.1859
196200	3.8635
197100	4.8039
198000	3.5305
198900	3.1297
199800	4.8792
200700	8.3326
201600	20.675
202500	34.3049
203400	63.7313
204300	87.8315
205200	111.0859
206100	125.8625
207000	122.3193
207900	155.3406
208800	175.6846
209700	180.3809
210600	197.63
211500	188.2386
212400	244.3949
213300	306.3348
214200	186.2885
215100	215.6693
216000	135.4789
216900	227.0896
217800	96.1229
218700	145.6177
219600	290.5052
220500	109.5044
221400	97.28
222300	146.4732
223200	155.2023
224100	145.9227
225000	109.0349
225900	135.813
226800	83.3602
227700	36.8023
228600	48.5148
229500	55.5785
230400	22.7977
231300	13.0754
232200	23.2432
233100	3.8273
234000	14.3945
234900	17.6613
235800	20.4949
236700	8.9643
237600	2.3156
238500	7.1643
239400	0.893
240300	2.0732
241200	0.9824
242100	2.2393
243000	1.8328
243900	2.9081
244800	0.0
245700	2.375
246600	2.6344
247500	0.0
248400	0.0
249300	0.0
250200	0.0
251100	0.0
252000	0.0
252900	0.0
253800	0.0
254700	0.0
255600	0.0
256500	0.0
257400	0.0
258300	0.0
259200	0.0
260100	0.0
261000	0.0
261900	0.0
262800	0.0
263700	0.0
264600	0.0
265500	0.0
266400	0.0
267300	0.0
268200	0.0
269100	0.0
270000	0.0
270900	0.0
271800	0.0
272700	0.0
273600	0.0
274500	0.0
275400	0.0
276300	0.0
277200	0.0
278100	0.0
279000	4.2469
279900	2.7461
280800	10.2551
281700	14.3047
282600	12.9281
283500	24.8685
284400	35.3863
285300	46.6387
286200	51.1445
287100	61.6664
288000	67.0309
288900	80.081
289800	87.3773
290700	97.0927
291600	97.5854
292500	115.8633
293400	144.35
294300	136.1062
295200	153.2302
296100	179.7699
297000	153.1672
297900	141.0482
298800	145.8841
299700	125.3217
300600	141.593
301500	150.4115
302400	95.3625
303300	186.9471
304200	329.1503
305100	182.6971
306000	98.3479
306900	164.1414
307800	296.8629
308700	209.3414
309600	118.2323
310500	147.0958
311400	197.1698
312300	353.7926
313200	342.3479
314100	456.7513
315000	289.2383
315900	505.8961
316800	486.3984
317700	487.1721
318600	423.9398
319500	272.2852
320400	379.157
321300	338.1008
322200	290.4419
323100	263.0122
324000	226.7461
324900	203.1172
325800	171.3573
326700	148.8125
327600	111.0637
328500	79.6943
329400	61.4172
330300	38.9438
331200	19.5331
332100	7.5322
333000	3.3438
333900	3.05
334800	0.0
335700	0.0
336600	0.0
337500	0.0
338400	0.0
339300	0.0
340200	0.0
341100	0.0
342000	0.0
342900	0.0
343800	0.0
344700	0.0
345600	0.0
346500	0.0
347400	0.0
348300	0.0
349200	0.0
350100	0.0
351000	0.0
351900	0.0
352800	0.0
353700	0.0
354600	0.0
355500	0.0
356400	0.0
357300	0.0
358200	0.0
359100	0.0
360000	0.0
360900	0.0
361800	0.0
362700	0.0
363600	0.0
364500	0.0
365400	4.3467
366300	6.3926
367200	10.534
368100	16.6583
369000	18.0766
369900	17.2229
370800	20.1582
371700	21.1299
372600	25.3961
373500	25.5566
374400	25.859
375300	31.759
376200	28.0714
377100	33.2214
378000	38.312
378900	39.2646
379800	40.9109
380700	53.2117
381600	69.9031
382500	81.6105
383400	124.2456
384300	111.3458
385200	162.0779
386100	167.699
387000	210.9521
387900	269.9932
388800	355.5107
389700	474.2977
390600	344.7039
391500	504.3367
392400	567.6562
393300	432.0578
394200	534.2761
395100	367.1557
396000	204.0841
396900	413.4294
397800	399.0886
398700	288.6073
399600	144.9926
400500	434.0654
401400	420.5438
402300	474.6746
403200	476.4092
404100	434.0872
405000	435.2656
405900	396.3742
406800	330.0521
407700	315.3451
408600	283.5951
409500	261.8904
410400	238.1203
411300	126.6361
412200	176.0982
413100	148.6708
414000	116.649
414900	87.1477
415800	70.9021
416700	36.9935
417600	21.5461
418500	8.7365
419400	2.2156
420300	2.5594
421200	0.0
422100	0.0
423000	0.0
423900	0.0
424800	0.0
425700	0.0
426600	0.0
427500	0.0
428400	0.0
429300	0.0
430200	0.0
431100	0.0
432000	0.0
432900	0.0
433800	0.0
434700	0.0
435600	0.0
436500	0.0
437400	0.0
438300	0.0
439200	0.0
440100	0.0
441000	0.0
441900	0.0
442800	0.0
443700	0.0
444600	0.0
445500	0.0
446400	0.0
447300	0.0
448200	0.0
449100	0.0
450000	0.0
450900	3.1758
451800	3.5286
452700	7.8307
453600	9.5551
454500	17.2883
455400	18.7406
456300	22.2355
457200	25.7401
458100	27.918
459000	28.165
459900	30.0594
460800	30.9023
461700	33.8536
462600	34.501
463500	40.937
464400	45.3953
465300	48.4258
466200	49.3568
467100	52.159
468000	56.7133
468900	64.9977
469800	72.1841
470700	89.3076
471600	161.0641
472500	245.5646
473400	311.2089
474300	368.0
475200	421.4927
476100	506.1219
477000	529.1182
477900	534.1625
478800	539.9868
479700	540.4617
480600	536.975
481500	531.3575
482400	525.7708
483300	517.1771
484200	517.2375
485100	500.7008
486000	485.5945
486900	468.2938
487800	451.1858
488700	437.1688
489600	423.7943
490500	397.6305
491400	375.3055
492300	349.4813
493200	330.3474
494100	304.9211
495000	273.8417
495900	242.6914
496800	217.651
497700	186.6939
498600	161.7
499500	138.8073
500400	106.5
501300	79.3893
502200	55.8005
503100	38.0893
504000	24.1503
504900	9.4227
505800	3.7521
506700	3.2918
507600	0.0
508500	0.0
509400	0.0
510300	0.0
511200	0.0
512100	0.0
513000	0.0
513900	0.0
514800	0.0
515700	0.0
516600	0.0
517500	0.0
518400	0.0
519300	0.0
520200	0.0
521100	0.0
522000	0.0
522900	0.0
523800	0.0
524700	0.0
525600	0.0
526500	0.0
527400	0.0
528300	0.0
529200	0.0
530100	0.0
531000	0.0
531900	0.0
532800	0.0
533700	0.0
534600	0.0
535500	0.0
536400	0.0
537300	0.0
538200	4.0488
539100	6.0143
540000	11.8086
540900	19.0363
541800	0.0
542700	23.4688
543600	25.5599
544500	26.2812
545400	29.4281
546300	29.9443
547200	30.8391
548100	31.3672
549000	32.0719
549900	38.6039
550800	42.8922
551700	44.2344
552600	40.5008
553500	44.6268
554400	48.8474
555300	57.4979
556200	63.9559
557100	78.6109
558000	113.7128
558900	162.7219
559800	188.4629
560700	243.7711
561600	309.3414
562500	417.6451
563400	472.8745
564300	512.3505
565200	535.7862
566100	536.8305
567000	534.7747
567900	528.5367
568800	522.9737
569700	515.2154
570600	509.9651
571500	498.5238
572400	491.2139
573300	475.7787
574200	462.7188
575100	450.6417
576000	432.575
576900	402.7148
577800	381.8386
578700	358.7328
579600	336.3205
580500	306.1693
581400	282.3906
582300	253.3727
583200	222.9221
584100	190.4628
585000	166.4281
585900	139.1013
586800	109.4542
587700	82.8812
588600	61.2888
589500	44.6352
590400	23.2066
591300	14.3302
592200	3.0005
593100	4.0945
594000	0.0
594900	0.0
595800	0.0
596700	0.0
597600	0.0
598500	0.0
599400	0.0
600300	0.0
601200	0.0
602100	0.0
603000	0.0
603900	0.0
604800	0.0
605700	0.0
606600	0.0
607500	0.0
608400	0.0
609300	0.0
610200	0.0
611100	0.0
612000	0.0
612900	0.0
613800	0.0
614700	0.0
615600	0.0
616500	0.0
617400	0.0
618300	0.0
619200	0.0
620100	0.0
621000	0.0
621900	0.0
622800	0.0
623700	2.8
624600	4.3628
625500	7.3656
626400	11.2516
627300	16.4089
628200	17.6219
629100	21.6834
630000	23.7883
630900	25.2581
631800	26.1292
632700	27.7948
633600	29.5867
634500	32.0625
635400	33.3128
636300	39.4451
637200	43.0602
638100	46.8637
639000	44.608
639900	48.1693
640800	49.2984
641700	54.5344
642600	61.5164
643500	80.9206
644400	100.6441
645300	160.5414
646200	181.5426
647100	249.4693
648000	315.9695
648900	408.369
649800	456.0531
650700	498.2888
651600	526.2114
652500	525.2607
653400	519.2305
654300	517.6537
655200	511.8504
656100	507.0549
657000	499.213
657900	488.9875
658800	476.8167
659700	469.3391
660600	454.634
661500	429.75
662400	415.468
663300	401.9125
664200	381.9235
665100	358.824
666000	335.8068
666900	310.5818
667800	283.8463
668700	226.8219
669600	198.7445
670500	111.649
671400	138.4578
672300	121.1609
673200	129.1612
674100	105.6879
675000	77.2057
675900	48.8161
676800	21.9255
677700	13.669
678600	3.4669
679500	3.6105
680400	0.0
681300	0.0
682200	0.0
683100	0.0
684000	0.0
684900	0.0
685800	0.0
686700	0.0
687600	0.0
688500	0.0
689400	0.0
690300	0.0
691200	0.0
692100	0.0
693000	0.0
693900	0.0
694800	0.0
695700	0.0
696600	0.0
697500	0.0
698400	0.0
699300	0.0
700200	0.0
701100	0.0
702000	0.0
702900	0.0
703800	0.0
704700	0.0
705600	0.0
706500	0.0
707400	0.0
708300	0.0
709200	0.0
710100	3.8047
711000	5.2063
711900	14.5641
712800	18.8129
713700	26.9229
714600	34.088
715500	38.2566
716400	38.5073
717300	35.8148
718200	39.0305
719100	34.9393
720000	38.3865
720900	53.0711
721800	48.6775
722700	57.3841
723600	66.4109
724500	64.1742
725400	77.6302
726300	115.1792
727200	111.9956
728100	94.1281
729000	74.063
729900	98.4145
730800	118.9744
731700	163.0154
732600	199.3857
733500	178.7281
734400	290.7734
735300	480.109
736200	242.432
737100	609.4617
738000	291.2464
738900	379.4508
739800	326.8445
740700	287.4312
741600	556.2294
742500	423.0018
743400	533.7469
744300	437.2615
745200	218.7488
746100	459.1717
747000	317.2609
747900	331.8901
748800	438.1521
749700	431.8893
750600	396.8422
751500	363.3065
752400	302.2688
753300	286.2547
754200	308.0682
755100	263.8036
756000	247.0862
756900	230.9539
757800	192.1737
758700	135.8823
759600	97.1734
760500	78.3193
761400	34.0875
762300	35.9875
763200	31.1625
764100	16.7871
765000	4.7281
765900	3.7855
766800	0.0
767700	0.0
768600	0.0
769500	0.0
770400	0.0
771300	0.0
772200	0.0
773100	0.0
774000	0.0
774900	0.0
775800	0.0
776700	0.0
777600	0.0
778500	0.0
779400	0.0
780300	0.0
781200	0.0
782100	0.0
783000	0.0
783900	0.0
784800	0.0
785700	0.0
786600	0.0
787500	0.0
788400	0.0
789300	0.0
790200	0.0
791100	0.0
792000	0.0
792900	0.0
793800	0.0
794700	0.0
795600	0.0
796500	0.0
797400	3.6805
798300	4.0971
799200	5.7193
800100	7.0312
801000	7.5465
801900	12.1687
802800	21.562
803700	21.6611
804600	20.8117
805500	19.382
806400	18.1125
807300	16.6859
808200	19.8117
809100	25.158
810000	28.9068
810900	30.1289
811800	28.3477
812700	28.8755
813600	32.4646
814500	34.8785
815400	37.8082
816300	59.1365
817200	101.0086
818100	132.8661
819000	156.6656
819900	227.1496
820800	300.3
821700	402.3771
822600	470.0422
823500	522.577
824400	545.6227
825300	551.2203
826200	547.9537
827100	545.3823
828000	538.3386
828900	529.0672
829800	524.0571
830700	510.3909
831600	506.0871
832500	490.9258
833400	481.6917
834300	460.4418
835200	438.6521
836100	419.0406
837000	401.1445
837900	373.6094
838800	348.8745
839700	328.9586
840600	303.4281
841500	277.3948
842400	247.6188
843300	222.2958
844200	182.9094
845100	159.5492
846000	133.1369
846900	103.1359
847800	82.7719
848700	48.2754
849600	20.3781
850500	12.8803
851400	6.3527
852300	4.3438
853200	0.0
854100	0.0
855000	0.0
855900	0.0
856800	0.0
857700	0.0
858600	0.0
859500	0.0
860400	0.0
861300	0.0
862200	0.0
863100	0.0
864000	0.0

